"STUDYID","USUBJID","AETERM","AEDECOD","AEBODSYS","AESEV","AESER","AEREL","ASTDT","AENDT","AEDUR"
"ADAMDEMO01","ADAMDEMO01-101-001","Dizzy spells","Dizziness","NERVOUS SYSTEM DISORDERS","MILD","N","NOT RELATED",2023-01-20,2023-01-22,3
"ADAMDEMO01","ADAMDEMO01-101-001","Headache","Headache","NERVOUS SYSTEM DISORDERS","MILD","N","POSSIBLY RELATED",2023-03-09,,
"ADAMDEMO01","ADAMDEMO01-101-001","Tiredness","Fatigue","GENERAL DISORDERS AND ADMINISTRATION SITE CONDITIONS","MILD","N","RELATED",2023-03-10,2023-03-10,1
"ADAMDEMO01","ADAMDEMO01-101-002","Dizzy spells","Dizziness","NERVOUS SYSTEM DISORDERS","MODERATE","N","NOT RELATED",2023-02-19,2023-02-24,6
"ADAMDEMO01","ADAMDEMO01-101-002","Nausea","Nausea","GASTROINTESTINAL DISORDERS","MILD","N","NOT RELATED",2023-03-24,2023-04-01,9
"ADAMDEMO01","ADAMDEMO01-101-003","Trouble sleeping","Insomnia","PSYCHIATRIC DISORDERS","MODERATE","N","NOT RELATED",2023-04-20,2023-04-24,5
"ADAMDEMO01","ADAMDEMO01-101-004","Nausea","Nausea","GASTROINTESTINAL DISORDERS","MILD","N","NOT RELATED",2023-05-05,2023-05-07,3
"ADAMDEMO01","ADAMDEMO01-101-005","Cough","Cough","RESPIRATORY, THORACIC AND MEDIASTINAL DISORDERS","MODERATE","N","RELATED",2023-04-14,2023-04-22,9
"ADAMDEMO01","ADAMDEMO01-101-005","Nausea","Nausea","GASTROINTESTINAL DISORDERS","MILD","N","POSSIBLY RELATED",2023-04-15,,
"ADAMDEMO01","ADAMDEMO01-101-005","Tiredness","Fatigue","GENERAL DISORDERS AND ADMINISTRATION SITE CONDITIONS","SEVERE","N","RELATED",2023-06-11,2023-06-13,3
"ADAMDEMO01","ADAMDEMO01-101-006","High blood pressure","Hypertension","VASCULAR DISORDERS","MODERATE","N","RELATED",2023-04-05,2023-04-08,4
"ADAMDEMO01","ADAMDEMO01-101-006","Common cold","Nasopharyngitis","INFECTIONS AND INFESTATIONS","MODERATE","N","NOT RELATED",2023-04-19,2023-04-26,8
"ADAMDEMO01","ADAMDEMO01-101-007","Headache","Headache","NERVOUS SYSTEM DISORDERS","MILD","N","NOT RELATED",2023-06-02,,
"ADAMDEMO01","ADAMDEMO01-101-007","Headache","Headache","NERVOUS SYSTEM DISORDERS","MILD","N","NOT RELATED",2023-06-26,2023-07-01,6
"ADAMDEMO01","ADAMDEMO01-101-008","Trouble sleeping","Insomnia","PSYCHIATRIC DISORDERS","MILD","N","RELATED",2023-05-07,2023-05-13,7
"ADAMDEMO01","ADAMDEMO01-101-008","Loose stools","Diarrhoea","GASTROINTESTINAL DISORDERS","MILD","N","POSSIBLY RELATED",2023-05-22,2023-05-26,5
"ADAMDEMO01","ADAMDEMO01-101-008","Headache","Headache","NERVOUS SYSTEM DISORDERS","MODERATE","N","POSSIBLY RELATED",2023-05-23,2023-05-28,6
"ADAMDEMO01","ADAMDEMO01-101-008","Cough","Cough","RESPIRATORY, THORACIC AND MEDIASTINAL DISORDERS","MODERATE","N","NOT RELATED",2023-05-25,2023-05-28,4
"ADAMDEMO01","ADAMDEMO01-101-009","Loose stools","Diarrhoea","GASTROINTESTINAL DISORDERS","MILD","N","NOT RELATED",2023-05-22,2023-05-24,3
"ADAMDEMO01","ADAMDEMO01-101-009","Tiredness","Fatigue","GENERAL DISORDERS AND ADMINISTRATION SITE CONDITIONS","MILD","N","RELATED",2023-07-01,2023-07-04,4
"ADAMDEMO01","ADAMDEMO01-101-009","Common cold","Nasopharyngitis","INFECTIONS AND INFESTATIONS","MODERATE","N","NOT RELATED",2023-07-08,2023-07-11,4
"ADAMDEMO01","ADAMDEMO01-102-010","Headache","Headache","NERVOUS SYSTEM DISORDERS","MODERATE","N","NOT RELATED",2023-02-21,2023-02-27,7
"ADAMDEMO01","ADAMDEMO01-102-010","High blood pressure","Hypertension","VASCULAR DISORDERS","MODERATE","N","POSSIBLY RELATED",2023-04-02,2023-04-08,7
"ADAMDEMO01","ADAMDEMO01-102-011","Tiredness","Fatigue","GENERAL DISORDERS AND ADMINISTRATION SITE CONDITIONS","MODERATE","N","RELATED",2023-02-18,2023-02-26,9
"ADAMDEMO01","ADAMDEMO01-102-011","Headache","Headache","NERVOUS SYSTEM DISORDERS","SEVERE","Y","RELATED",2023-02-27,2023-03-02,4
"ADAMDEMO01","ADAMDEMO01-102-011","Headache","Headache","NERVOUS SYSTEM DISORDERS","MILD","N","RELATED",2023-03-04,2023-03-08,5
"ADAMDEMO01","ADAMDEMO01-102-012","Common cold","Nasopharyngitis","INFECTIONS AND INFESTATIONS","MILD","N","POSSIBLY RELATED",2023-04-22,2023-04-25,4
"ADAMDEMO01","ADAMDEMO01-102-012","Tiredness","Fatigue","GENERAL DISORDERS AND ADMINISTRATION SITE CONDITIONS","MILD","N","POSSIBLY RELATED",2023-05-09,2023-05-11,3
"ADAMDEMO01","ADAMDEMO01-102-012","Nausea","Nausea","GASTROINTESTINAL DISORDERS","MILD","N","NOT RELATED",2023-05-09,2023-05-11,3
"ADAMDEMO01","ADAMDEMO01-102-012","Cough","Cough","RESPIRATORY, THORACIC AND MEDIASTINAL DISORDERS","MILD","N","POSSIBLY RELATED",2023-06-13,2023-06-13,1
"ADAMDEMO01","ADAMDEMO01-102-013","Tiredness","Fatigue","GENERAL DISORDERS AND ADMINISTRATION SITE CONDITIONS","MODERATE","N","NOT RELATED",2023-03-05,2023-03-12,8
"ADAMDEMO01","ADAMDEMO01-102-013","Dizzy spells","Dizziness","NERVOUS SYSTEM DISORDERS","MILD","N","RELATED",2023-04-03,2023-04-09,7
"ADAMDEMO01","ADAMDEMO01-102-014","Loose stools","Diarrhoea","GASTROINTESTINAL DISORDERS","SEVERE","Y","NOT RELATED",2023-02-23,2023-02-25,3
"ADAMDEMO01","ADAMDEMO01-102-014","Nausea","Nausea","GASTROINTESTINAL DISORDERS","MILD","N","NOT RELATED",2023-03-17,2023-03-23,7
"ADAMDEMO01","ADAMDEMO01-102-015","Headache","Headache","NERVOUS SYSTEM DISORDERS","MILD","N","RELATED",2023-03-22,2023-03-24,3
"ADAMDEMO01","ADAMDEMO01-102-016","Common cold","Nasopharyngitis","INFECTIONS AND INFESTATIONS","MODERATE","N","NOT RELATED",2023-03-29,2023-04-01,4
"ADAMDEMO01","ADAMDEMO01-102-017","Dizzy spells","Dizziness","NERVOUS SYSTEM DISORDERS","MILD","N","POSSIBLY RELATED",2023-03-06,2023-03-13,8
"ADAMDEMO01","ADAMDEMO01-102-019","Cough","Cough","RESPIRATORY, THORACIC AND MEDIASTINAL DISORDERS","MILD","N","NOT RELATED",2023-06-14,2023-06-14,1
"ADAMDEMO01","ADAMDEMO01-102-019","Lower back pain","Back pain","MUSCULOSKELETAL AND CONNECTIVE TISSUE DISORDERS","MILD","N","NOT RELATED",2023-07-03,2023-07-04,2
"ADAMDEMO01","ADAMDEMO01-102-019","Nausea","Nausea","GASTROINTESTINAL DISORDERS","MILD","N","NOT RELATED",2023-07-05,2023-07-07,3
"ADAMDEMO01","ADAMDEMO01-102-020","Trouble sleeping","Insomnia","PSYCHIATRIC DISORDERS","SEVERE","N","NOT RELATED",2023-05-23,2023-05-26,4
"ADAMDEMO01","ADAMDEMO01-102-020","Loose stools","Diarrhoea","GASTROINTESTINAL DISORDERS","MILD","N","NOT RELATED",2023-07-01,2023-07-01,1
"ADAMDEMO01","ADAMDEMO01-102-020","Headache","Headache","NERVOUS SYSTEM DISORDERS","MODERATE","N","NOT RELATED",2023-07-08,2023-07-12,5
"ADAMDEMO01","ADAMDEMO01-102-021","Cough","Cough","RESPIRATORY, THORACIC AND MEDIASTINAL DISORDERS","MODERATE","N","RELATED",2023-02-13,,
"ADAMDEMO01","ADAMDEMO01-102-021","Dizzy spells","Dizziness","NERVOUS SYSTEM DISORDERS","MODERATE","N","POSSIBLY RELATED",2023-02-13,2023-02-14,2
"ADAMDEMO01","ADAMDEMO01-102-021","Headache","Headache","NERVOUS SYSTEM DISORDERS","MILD","N","NOT RELATED",2023-02-21,2023-02-23,3
"ADAMDEMO01","ADAMDEMO01-102-021","Common cold","Nasopharyngitis","INFECTIONS AND INFESTATIONS","MILD","N","RELATED",2023-04-03,2023-04-08,6
"ADAMDEMO01","ADAMDEMO01-103-022","Headache","Headache","NERVOUS SYSTEM DISORDERS","MILD","N","POSSIBLY RELATED",2023-06-15,2023-06-18,4
"ADAMDEMO01","ADAMDEMO01-103-023","Skin rash","Rash","SKIN AND SUBCUTANEOUS TISSUE DISORDERS","SEVERE","Y","NOT RELATED",2023-05-14,2023-05-17,4
"ADAMDEMO01","ADAMDEMO01-103-023","Cough","Cough","RESPIRATORY, THORACIC AND MEDIASTINAL DISORDERS","SEVERE","Y","POSSIBLY RELATED",2023-05-20,2023-05-26,7
"ADAMDEMO01","ADAMDEMO01-103-023","Nausea","Nausea","GASTROINTESTINAL DISORDERS","MODERATE","N","POSSIBLY RELATED",2023-05-26,2023-05-31,6
"ADAMDEMO01","ADAMDEMO01-103-023","Dizzy spells","Dizziness","NERVOUS SYSTEM DISORDERS","MILD","N","POSSIBLY RELATED",2023-06-29,,
"ADAMDEMO01","ADAMDEMO01-103-023","Skin rash","Rash","SKIN AND SUBCUTANEOUS TISSUE DISORDERS","MILD","N","RELATED",2023-06-30,2023-07-07,8
"ADAMDEMO01","ADAMDEMO01-103-024","Headache","Headache","NERVOUS SYSTEM DISORDERS","MILD","N","RELATED",2023-06-20,,
"ADAMDEMO01","ADAMDEMO01-103-025","Nausea","Nausea","GASTROINTESTINAL DISORDERS","MODERATE","N","NOT RELATED",2023-06-05,2023-06-08,4
"ADAMDEMO01","ADAMDEMO01-103-025","Tiredness","Fatigue","GENERAL DISORDERS AND ADMINISTRATION SITE CONDITIONS","MILD","N","NOT RELATED",2023-06-21,2023-06-27,7
"ADAMDEMO01","ADAMDEMO01-103-027","Nausea","Nausea","GASTROINTESTINAL DISORDERS","MODERATE","N","NOT RELATED",2023-04-26,2023-04-30,5
"ADAMDEMO01","ADAMDEMO01-103-027","Loose stools","Diarrhoea","GASTROINTESTINAL DISORDERS","SEVERE","N","POSSIBLY RELATED",2023-05-04,2023-05-11,8
"ADAMDEMO01","ADAMDEMO01-103-028","Cough","Cough","RESPIRATORY, THORACIC AND MEDIASTINAL DISORDERS","MILD","N","POSSIBLY RELATED",2023-02-21,2023-02-25,5
"ADAMDEMO01","ADAMDEMO01-103-028","Trouble sleeping","Insomnia","PSYCHIATRIC DISORDERS","MILD","N","NOT RELATED",2023-04-02,2023-04-06,5
"ADAMDEMO01","ADAMDEMO01-103-028","Headache","Headache","NERVOUS SYSTEM DISORDERS","MODERATE","N","POSSIBLY RELATED",2023-04-06,2023-04-08,3
"ADAMDEMO01","ADAMDEMO01-103-029","Nausea","Nausea","GASTROINTESTINAL DISORDERS","MILD","N","RELATED",2023-01-14,2023-01-17,4
"ADAMDEMO01","ADAMDEMO01-103-029","Trouble sleeping","Insomnia","PSYCHIATRIC DISORDERS","MODERATE","N","RELATED",2023-01-26,2023-01-29,4
"ADAMDEMO01","ADAMDEMO01-103-029","Cough","Cough","RESPIRATORY, THORACIC AND MEDIASTINAL DISORDERS","MODERATE","N","NOT RELATED",2023-02-05,2023-02-13,9
"ADAMDEMO01","ADAMDEMO01-103-029","Skin rash","Rash","SKIN AND SUBCUTANEOUS TISSUE DISORDERS","MODERATE","N","POSSIBLY RELATED",2023-02-11,2023-02-15,5
"ADAMDEMO01","ADAMDEMO01-103-029","Cough","Cough","RESPIRATORY, THORACIC AND MEDIASTINAL DISORDERS","MILD","N","NOT RELATED",2023-03-17,2023-03-23,7
"ADAMDEMO01","ADAMDEMO01-103-030","Tiredness","Fatigue","GENERAL DISORDERS AND ADMINISTRATION SITE CONDITIONS","MILD","N","POSSIBLY RELATED",2023-03-03,2023-03-06,4
"ADAMDEMO01","ADAMDEMO01-103-030","Common cold","Nasopharyngitis","INFECTIONS AND INFESTATIONS","SEVERE","Y","NOT RELATED",2023-03-08,,
"ADAMDEMO01","ADAMDEMO01-103-030","Skin rash","Rash","SKIN AND SUBCUTANEOUS TISSUE DISORDERS","MILD","N","NOT RELATED",2023-04-05,2023-04-12,8
"ADAMDEMO01","ADAMDEMO01-103-030","Cough","Cough","RESPIRATORY, THORACIC AND MEDIASTINAL DISORDERS","MILD","N","NOT RELATED",2023-04-14,2023-04-16,3
"ADAMDEMO01","ADAMDEMO01-103-031","Dizzy spells","Dizziness","NERVOUS SYSTEM DISORDERS","MILD","N","POSSIBLY RELATED",2023-02-05,2023-02-07,3
"ADAMDEMO01","ADAMDEMO01-103-031","Dizzy spells","Dizziness","NERVOUS SYSTEM DISORDERS","MILD","N","NOT RELATED",2023-02-18,2023-02-25,8
"ADAMDEMO01","ADAMDEMO01-103-031","Lower back pain","Back pain","MUSCULOSKELETAL AND CONNECTIVE TISSUE DISORDERS","SEVERE","N","POSSIBLY RELATED",2023-03-05,2023-03-08,4
"ADAMDEMO01","ADAMDEMO01-103-032","Loose stools","Diarrhoea","GASTROINTESTINAL DISORDERS","MILD","N","NOT RELATED",2023-03-27,2023-04-01,6
"ADAMDEMO01","ADAMDEMO01-103-033","Lower back pain","Back pain","MUSCULOSKELETAL AND CONNECTIVE TISSUE DISORDERS","MILD","N","NOT RELATED",2023-04-19,2023-04-21,3
"ADAMDEMO01","ADAMDEMO01-103-034","Nausea","Nausea","GASTROINTESTINAL DISORDERS","SEVERE","N","POSSIBLY RELATED",2023-04-30,2023-05-06,7
"ADAMDEMO01","ADAMDEMO01-103-035","Nausea","Nausea","GASTROINTESTINAL DISORDERS","MILD","N","POSSIBLY RELATED",2023-02-08,,
"ADAMDEMO01","ADAMDEMO01-103-036","Loose stools","Diarrhoea","GASTROINTESTINAL DISORDERS","MILD","N","POSSIBLY RELATED",2023-02-07,2023-02-10,4
"ADAMDEMO01","ADAMDEMO01-103-036","Lower back pain","Back pain","MUSCULOSKELETAL AND CONNECTIVE TISSUE DISORDERS","MILD","N","RELATED",2023-02-12,2023-02-19,8
"ADAMDEMO01","ADAMDEMO01-103-036","Dizzy spells","Dizziness","NERVOUS SYSTEM DISORDERS","MILD","N","POSSIBLY RELATED",2023-03-03,2023-03-05,3
"ADAMDEMO01","ADAMDEMO01-103-036","Loose stools","Diarrhoea","GASTROINTESTINAL DISORDERS","MILD","N","NOT RELATED",2023-03-17,,
"ADAMDEMO01","ADAMDEMO01-103-036","Headache","Headache","NERVOUS SYSTEM DISORDERS","MILD","N","POSSIBLY RELATED",2023-03-18,2023-03-20,3
"ADAMDEMO01","ADAMDEMO01-103-037","Dizzy spells","Dizziness","NERVOUS SYSTEM DISORDERS","MILD","N","POSSIBLY RELATED",2023-04-25,2023-04-29,5
"ADAMDEMO01","ADAMDEMO01-103-038","Cough","Cough","RESPIRATORY, THORACIC AND MEDIASTINAL DISORDERS","MILD","N","POSSIBLY RELATED",2023-02-01,2023-02-06,6
"ADAMDEMO01","ADAMDEMO01-104-039","Headache","Headache","NERVOUS SYSTEM DISORDERS","MILD","N","POSSIBLY RELATED",2023-02-26,2023-03-03,6
"ADAMDEMO01","ADAMDEMO01-104-040","Loose stools","Diarrhoea","GASTROINTESTINAL DISORDERS","MODERATE","N","RELATED",2023-03-19,2023-03-21,3
"ADAMDEMO01","ADAMDEMO01-104-040","Common cold","Nasopharyngitis","INFECTIONS AND INFESTATIONS","SEVERE","Y","RELATED",2023-03-30,,
"ADAMDEMO01","ADAMDEMO01-104-041","Common cold","Nasopharyngitis","INFECTIONS AND INFESTATIONS","MODERATE","N","POSSIBLY RELATED",2023-05-26,2023-05-30,5
"ADAMDEMO01","ADAMDEMO01-104-041","Lower back pain","Back pain","MUSCULOSKELETAL AND CONNECTIVE TISSUE DISORDERS","MODERATE","N","NOT RELATED",2023-06-02,2023-06-09,8
"ADAMDEMO01","ADAMDEMO01-104-042","Tiredness","Fatigue","GENERAL DISORDERS AND ADMINISTRATION SITE CONDITIONS","MODERATE","N","POSSIBLY RELATED",2023-04-08,2023-04-13,6
"ADAMDEMO01","ADAMDEMO01-104-043","Dizzy spells","Dizziness","NERVOUS SYSTEM DISORDERS","MODERATE","N","NOT RELATED",2023-04-19,2023-04-21,3
"ADAMDEMO01","ADAMDEMO01-104-043","Dizzy spells","Dizziness","NERVOUS SYSTEM DISORDERS","MILD","N","NOT RELATED",2023-04-22,2023-04-27,6
"ADAMDEMO01","ADAMDEMO01-104-043","Cough","Cough","RESPIRATORY, THORACIC AND MEDIASTINAL DISORDERS","MILD","N","NOT RELATED",2023-05-09,2023-05-13,5
"ADAMDEMO01","ADAMDEMO01-104-043","Nausea","Nausea","GASTROINTESTINAL DISORDERS","MILD","N","NOT RELATED",2023-05-23,2023-05-27,5
"ADAMDEMO01","ADAMDEMO01-104-044","Loose stools","Diarrhoea","GASTROINTESTINAL DISORDERS","MODERATE","N","NOT RELATED",2023-04-18,2023-04-27,10
"ADAMDEMO01","ADAMDEMO01-104-044","Cough","Cough","RESPIRATORY, THORACIC AND MEDIASTINAL DISORDERS","MODERATE","N","RELATED",2023-04-26,2023-04-30,5
"ADAMDEMO01","ADAMDEMO01-104-045","Loose stools","Diarrhoea","GASTROINTESTINAL DISORDERS","MILD","N","RELATED",2023-04-23,,
"ADAMDEMO01","ADAMDEMO01-104-046","Common cold","Nasopharyngitis","INFECTIONS AND INFESTATIONS","MILD","N","POSSIBLY RELATED",2023-02-21,,
"ADAMDEMO01","ADAMDEMO01-104-046","Trouble sleeping","Insomnia","PSYCHIATRIC DISORDERS","MILD","N","RELATED",2023-03-07,2023-03-12,6
"ADAMDEMO01","ADAMDEMO01-104-047","Headache","Headache","NERVOUS SYSTEM DISORDERS","MILD","N","NOT RELATED",2023-02-24,,
"ADAMDEMO01","ADAMDEMO01-104-047","Tiredness","Fatigue","GENERAL DISORDERS AND ADMINISTRATION SITE CONDITIONS","MILD","N","NOT RELATED",2023-03-11,2023-03-13,3
"ADAMDEMO01","ADAMDEMO01-104-048","Cough","Cough","RESPIRATORY, THORACIC AND MEDIASTINAL DISORDERS","MILD","N","NOT RELATED",2023-03-09,2023-03-13,5
"ADAMDEMO01","ADAMDEMO01-104-048","Common cold","Nasopharyngitis","INFECTIONS AND INFESTATIONS","MILD","N","RELATED",2023-03-22,2023-03-26,5
"ADAMDEMO01","ADAMDEMO01-104-048","Common cold","Nasopharyngitis","INFECTIONS AND INFESTATIONS","MILD","N","POSSIBLY RELATED",2023-04-20,2023-04-22,3
"ADAMDEMO01","ADAMDEMO01-104-048","Tiredness","Fatigue","GENERAL DISORDERS AND ADMINISTRATION SITE CONDITIONS","MILD","N","RELATED",2023-04-25,,
"ADAMDEMO01","ADAMDEMO01-104-049","Trouble sleeping","Insomnia","PSYCHIATRIC DISORDERS","MODERATE","N","NOT RELATED",2023-04-07,,
"ADAMDEMO01","ADAMDEMO01-104-049","Headache","Headache","NERVOUS SYSTEM DISORDERS","SEVERE","Y","NOT RELATED",2023-05-12,2023-05-14,3
"ADAMDEMO01","ADAMDEMO01-105-050","Headache","Headache","NERVOUS SYSTEM DISORDERS","MILD","N","RELATED",2023-05-01,,
"ADAMDEMO01","ADAMDEMO01-105-050","Loose stools","Diarrhoea","GASTROINTESTINAL DISORDERS","MILD","N","NOT RELATED",2023-06-28,2023-07-01,4
"ADAMDEMO01","ADAMDEMO01-105-051","Dizzy spells","Dizziness","NERVOUS SYSTEM DISORDERS","MILD","N","NOT RELATED",2023-04-18,2023-04-21,4
"ADAMDEMO01","ADAMDEMO01-105-052","Headache","Headache","NERVOUS SYSTEM DISORDERS","MODERATE","N","POSSIBLY RELATED",2023-01-26,2023-01-30,5
"ADAMDEMO01","ADAMDEMO01-105-052","Tiredness","Fatigue","GENERAL DISORDERS AND ADMINISTRATION SITE CONDITIONS","MILD","N","RELATED",2023-02-06,2023-02-08,3
"ADAMDEMO01","ADAMDEMO01-105-053","Common cold","Nasopharyngitis","INFECTIONS AND INFESTATIONS","MODERATE","N","POSSIBLY RELATED",2023-03-20,2023-03-23,4
"ADAMDEMO01","ADAMDEMO01-105-053","High blood pressure","Hypertension","VASCULAR DISORDERS","MILD","N","NOT RELATED",2023-03-29,2023-04-04,7
"ADAMDEMO01","ADAMDEMO01-105-054","Tiredness","Fatigue","GENERAL DISORDERS AND ADMINISTRATION SITE CONDITIONS","MODERATE","N","POSSIBLY RELATED",2023-03-02,,
"ADAMDEMO01","ADAMDEMO01-105-054","Lower back pain","Back pain","MUSCULOSKELETAL AND CONNECTIVE TISSUE DISORDERS","MODERATE","N","NOT RELATED",2023-03-29,2023-03-31,3
"ADAMDEMO01","ADAMDEMO01-105-055","Nausea","Nausea","GASTROINTESTINAL DISORDERS","MILD","N","POSSIBLY RELATED",2023-03-15,,
"ADAMDEMO01","ADAMDEMO01-105-055","High blood pressure","Hypertension","VASCULAR DISORDERS","MODERATE","N","POSSIBLY RELATED",2023-05-01,2023-05-01,1
"ADAMDEMO01","ADAMDEMO01-105-056","Cough","Cough","RESPIRATORY, THORACIC AND MEDIASTINAL DISORDERS","MODERATE","N","POSSIBLY RELATED",2023-04-20,2023-04-27,8
"ADAMDEMO01","ADAMDEMO01-105-056","Skin rash","Rash","SKIN AND SUBCUTANEOUS TISSUE DISORDERS","MODERATE","N","NOT RELATED",2023-04-27,,
"ADAMDEMO01","ADAMDEMO01-105-056","Nausea","Nausea","GASTROINTESTINAL DISORDERS","MILD","N","NOT RELATED",2023-05-20,2023-05-29,10
"ADAMDEMO01","ADAMDEMO01-105-056","Headache","Headache","NERVOUS SYSTEM DISORDERS","MILD","N","NOT RELATED",2023-06-01,2023-06-05,5
"ADAMDEMO01","ADAMDEMO01-105-056","Common cold","Nasopharyngitis","INFECTIONS AND INFESTATIONS","MODERATE","N","NOT RELATED",2023-06-14,2023-06-16,3
"ADAMDEMO01","ADAMDEMO01-105-056","Headache","Headache","NERVOUS SYSTEM DISORDERS","MILD","N","POSSIBLY RELATED",2023-06-21,2023-06-24,4
"ADAMDEMO01","ADAMDEMO01-105-058","Lower back pain","Back pain","MUSCULOSKELETAL AND CONNECTIVE TISSUE DISORDERS","MILD","N","NOT RELATED",2023-02-27,,
"ADAMDEMO01","ADAMDEMO01-105-058","Nausea","Nausea","GASTROINTESTINAL DISORDERS","MILD","N","POSSIBLY RELATED",2023-04-13,2023-04-20,8
"ADAMDEMO01","ADAMDEMO01-105-058","Headache","Headache","NERVOUS SYSTEM DISORDERS","MODERATE","N","RELATED",2023-04-20,2023-04-22,3
"ADAMDEMO01","ADAMDEMO01-105-059","Cough","Cough","RESPIRATORY, THORACIC AND MEDIASTINAL DISORDERS","MODERATE","N","RELATED",2023-01-30,2023-02-08,10
"ADAMDEMO01","ADAMDEMO01-105-059","Cough","Cough","RESPIRATORY, THORACIC AND MEDIASTINAL DISORDERS","MODERATE","N","POSSIBLY RELATED",2023-02-07,2023-02-09,3
"ADAMDEMO01","ADAMDEMO01-105-059","Trouble sleeping","Insomnia","PSYCHIATRIC DISORDERS","MILD","N","POSSIBLY RELATED",2023-02-07,2023-02-10,4
"ADAMDEMO01","ADAMDEMO01-105-059","Common cold","Nasopharyngitis","INFECTIONS AND INFESTATIONS","MILD","N","NOT RELATED",2023-02-07,2023-02-11,5
"ADAMDEMO01","ADAMDEMO01-105-059","Loose stools","Diarrhoea","GASTROINTESTINAL DISORDERS","MILD","N","NOT RELATED",2023-02-12,2023-02-17,6
"ADAMDEMO01","ADAMDEMO01-105-059","Lower back pain","Back pain","MUSCULOSKELETAL AND CONNECTIVE TISSUE DISORDERS","MODERATE","N","RELATED",2023-02-17,2023-02-18,2
"ADAMDEMO01","ADAMDEMO01-105-059","High blood pressure","Hypertension","VASCULAR DISORDERS","SEVERE","Y","NOT RELATED",2023-03-20,2023-03-23,4
"ADAMDEMO01","ADAMDEMO01-105-060","Loose stools","Diarrhoea","GASTROINTESTINAL DISORDERS","MODERATE","N","POSSIBLY RELATED",2023-03-13,2023-03-15,3
"ADAMDEMO01","ADAMDEMO01-105-060","Cough","Cough","RESPIRATORY, THORACIC AND MEDIASTINAL DISORDERS","MILD","N","RELATED",2023-03-31,2023-04-01,2
