"DTHFL","SAFFL","TRTEDT","TRTSDT","BMIBL","HEIGHTBL","WEIGHTBL","AGEGR1","AGE","RACE","SEX","ARM","SITEID","USUBJID","STUDYID"
"","Y",2023-07-09,2023-04-17,34.6,147.3,75.1,"<45",35,"ASIAN","F","High Dose","101","ADAMDEMO01-101-007","ADAMDEMO01"
"","Y",2023-07-19,2023-04-27,20.9,168.3,59.2,"<45",35,"OTHER","F","Placebo","103","ADAMDEMO01-103-022","ADAMDEMO01"
"","Y",2023-07-11,2023-04-19,26.5,156.4,64.7,"<45",36,"WHITE","F","Placebo","104","ADAMDEMO01-104-041","ADAMDEMO01"
"","Y",2023-07-13,2023-04-21,26.4,161.6,69,"<45",37,"BLACK OR AFRICAN AMERICAN","F","High Dose","105","ADAMDEMO01-105-050","ADAMDEMO01"
"Y","Y",,2023-02-14,22.9,158,57.1,"<45",39,"OTHER","F","High Dose","103","ADAMDEMO01-103-030","ADAMDEMO01"
"","Y",2023-04-25,2023-02-01,20.1,172.5,59.7,"<45",40,"WHITE","F","Low Dose","103","ADAMDEMO01-103-038","ADAMDEMO01"
"","Y",2023-07-13,2023-04-21,24.9,186.4,86.6,"<45",41,"WHITE","M","Placebo","103","ADAMDEMO01-103-024","ADAMDEMO01"
"","Y",2023-04-11,2023-01-18,27.7,180,89.6,"<45",42,"WHITE","M","Placebo","102","ADAMDEMO01-102-014","ADAMDEMO01"
"","Y",2023-04-24,2023-01-31,28.3,162.8,75.1,"<45",43,"OTHER","M","Placebo","103","ADAMDEMO01-103-032","ADAMDEMO01"
"","Y",2023-04-11,2023-03-27,21.2,187.9,75,"<45",44,"WHITE","M","Low Dose","103","ADAMDEMO01-103-027","ADAMDEMO01"
"","Y",2023-07-31,2023-05-09,28.8,157.1,71.2,"45-64",45,"WHITE","F","High Dose","103","ADAMDEMO01-103-023","ADAMDEMO01"
"","Y",2023-07-31,2023-05-09,,172.9,,"45-64",45,"ASIAN","M","Low Dose","103","ADAMDEMO01-103-025","ADAMDEMO01"
"","N",2023-04-02,2023-01-09,29.9,192,110.3,"45-64",45,"WHITE","M","High Dose","103","ADAMDEMO01-103-029","ADAMDEMO01"
"Y","Y",2023-04-06,2023-01-13,25.6,157.7,63.6,"45-64",46,"WHITE","F","Low Dose","103","ADAMDEMO01-103-031","ADAMDEMO01"
"","Y",2023-07-05,2023-04-13,25,181,82,"45-64",47,"ASIAN","M","High Dose","101","ADAMDEMO01-101-008","ADAMDEMO01"
"","Y",2023-04-20,2023-01-27,26.5,184.8,90.5,"45-64",49,"WHITE","M","Low Dose","105","ADAMDEMO01-105-054","ADAMDEMO01"
"","Y",2023-04-11,2023-01-18,19.8,181.2,65,"45-64",50,"BLACK OR AFRICAN AMERICAN","M","High Dose","103","ADAMDEMO01-103-036","ADAMDEMO01"
"","Y",2023-06-25,2023-04-03,19.5,182.2,64.7,"45-64",50,"WHITE","M","Placebo","104","ADAMDEMO01-104-042","ADAMDEMO01"
"","Y",2023-05-13,2023-02-19,29.6,182.6,98.6,"45-64",52,"ASIAN","M","Placebo","102","ADAMDEMO01-102-010","ADAMDEMO01"
"","Y",2023-07-27,2023-05-05,29.8,177.3,93.8,"45-64",52,"BLACK OR AFRICAN AMERICAN","M","Low Dose","102","ADAMDEMO01-102-019","ADAMDEMO01"
"","Y",2023-06-27,2023-04-05,24,161.7,62.7,"45-64",52,"BLACK OR AFRICAN AMERICAN","F","Placebo","103","ADAMDEMO01-103-034","ADAMDEMO01"
"","Y",2023-04-17,2023-03-18,31.1,166.1,85.7,"45-64",52,"WHITE","M","Low Dose","105","ADAMDEMO01-105-053","ADAMDEMO01"
"","Y",2023-04-26,2023-02-02,30.1,158.4,75.5,"45-64",52,"OTHER","F","Placebo","105","ADAMDEMO01-105-057","ADAMDEMO01"
"","N",2023-04-04,2023-01-11,22,169.7,63.3,"45-64",53,"ASIAN","F","Low Dose","101","ADAMDEMO01-101-001","ADAMDEMO01"
"","Y",2023-03-19,2023-01-10,30.2,161.3,78.6,"45-64",53,"WHITE","F","Placebo","105","ADAMDEMO01-105-052","ADAMDEMO01"
"","Y",2023-05-19,2023-02-25,23.2,162.4,61.1,"45-64",54,"WHITE","F","High Dose","101","ADAMDEMO01-101-006","ADAMDEMO01"
"","Y",2023-07-07,2023-04-15,30.1,153.6,71,"45-64",54,"BLACK OR AFRICAN AMERICAN","F","Placebo","102","ADAMDEMO01-102-012","ADAMDEMO01"
"","Y",2023-05-25,2023-03-03,19.9,167.3,55.8,"45-64",56,"WHITE","F","Low Dose","104","ADAMDEMO01-104-045","ADAMDEMO01"
"","Y",2023-06-16,2023-04-18,25.1,172.6,74.7,"45-64",56,"WHITE","M","Low Dose","105","ADAMDEMO01-105-051","ADAMDEMO01"
"","Y",2023-04-05,2023-01-12,30.5,178.1,96.9,"45-64",56,"BLACK OR AFRICAN AMERICAN","M","High Dose","105","ADAMDEMO01-105-059","ADAMDEMO01"
"","Y",2023-06-27,2023-04-05,20.1,185.7,69.4,"45-64",57,"BLACK OR AFRICAN AMERICAN","M","Low Dose","101","ADAMDEMO01-101-005","ADAMDEMO01"
"","Y",2023-05-27,2023-03-05,25.2,181.2,82.9,"45-64",57,"BLACK OR AFRICAN AMERICAN","M","Low Dose","104","ADAMDEMO01-104-040","ADAMDEMO01"
"","Y",2023-04-19,2023-01-26,20.5,194.5,77.6,"45-64",58,"WHITE","M","Low Dose","104","ADAMDEMO01-104-039","ADAMDEMO01"
"","Y",2023-06-01,2023-03-10,28.9,164.2,77.8,"45-64",61,"ASIAN","F","Placebo","101","ADAMDEMO01-101-003","ADAMDEMO01"
"","Y",2023-04-13,2023-01-20,24.1,180.4,78.4,"45-64",61,"WHITE","M","Placebo","102","ADAMDEMO01-102-016","ADAMDEMO01"
"","Y",2023-04-17,2023-03-08,28.1,175.1,86.1,"45-64",61,"WHITE","M","High Dose","103","ADAMDEMO01-103-033","ADAMDEMO01"
"","Y",2023-05-16,2023-02-22,26.8,159.8,68.4,"45-64",61,"ASIAN","F","High Dose","103","ADAMDEMO01-103-037","ADAMDEMO01"
"","Y",2023-05-16,2023-02-22,23.2,173.3,69.6,"45-64",62,"WHITE","M","Low Dose","102","ADAMDEMO01-102-013","ADAMDEMO01"
"","Y",2023-05-09,2023-02-15,26.3,175.8,81.2,"45-64",62,"BLACK OR AFRICAN AMERICAN","M","Placebo","102","ADAMDEMO01-102-017","ADAMDEMO01"
"","Y",2023-04-07,2023-01-14,24.9,166.6,69.2,"45-64",63,"WHITE","M","High Dose","101","ADAMDEMO01-101-002","ADAMDEMO01"
"","Y",2023-04-22,2023-01-29,29.3,163.8,78.5,">=65",65,"WHITE","M","High Dose","103","ADAMDEMO01-103-028","ADAMDEMO01"
"Y","Y",,2023-03-29,22.3,161.8,58.5,">=65",65,"WHITE","F","High Dose","104","ADAMDEMO01-104-043","ADAMDEMO01"
"","Y",2023-06-11,2023-03-20,29.6,166.1,81.8,">=65",66,"WHITE","F","Placebo","101","ADAMDEMO01-101-004","ADAMDEMO01"
"","Y",2023-04-07,2023-01-14,26.3,172.3,78.2,">=65",66,"WHITE","F","Low Dose","104","ADAMDEMO01-104-047","ADAMDEMO01"
"","Y",2023-06-09,2023-03-18,24.2,172.5,71.9,">=65",67,"WHITE","F","Placebo","104","ADAMDEMO01-104-049","ADAMDEMO01"
"","Y",2023-05-11,2023-02-17,28.8,164.7,78.1,">=65",67,"WHITE","F","Placebo","105","ADAMDEMO01-105-058","ADAMDEMO01"
"","Y",2023-07-26,2023-05-04,31.6,156.7,77.6,">=65",68,"WHITE","F","Low Dose","102","ADAMDEMO01-102-020","ADAMDEMO01"
"","Y",,2023-02-01,36.8,156.2,89.7,">=65",68,"WHITE","F","Low Dose","103","ADAMDEMO01-103-035","ADAMDEMO01"
"","Y",2023-04-05,2023-01-12,29.8,154.3,70.9,">=65",68,"WHITE","F","High Dose","104","ADAMDEMO01-104-046","ADAMDEMO01"
"","Y",2023-03-08,2023-02-15,,177.6,,">=65",68,"WHITE","M","Placebo","104","ADAMDEMO01-104-048","ADAMDEMO01"
"","Y",2023-05-05,2023-02-11,,159.7,,">=65",70,"WHITE","F","High Dose","102","ADAMDEMO01-102-021","ADAMDEMO01"
"","Y",2023-06-28,2023-04-06,23.7,157.1,58.4,">=65",70,"WHITE","F","High Dose","103","ADAMDEMO01-103-026","ADAMDEMO01"
"","Y",2023-05-18,2023-02-24,32.6,157.3,80.7,">=65",70,"WHITE","F","High Dose","105","ADAMDEMO01-105-055","ADAMDEMO01"
"","Y",2023-07-30,2023-05-08,42.4,147.4,92.2,">=65",71,"WHITE","F","Placebo","101","ADAMDEMO01-101-009","ADAMDEMO01"
"","Y",2023-04-05,2023-01-12,20.8,184.3,70.6,">=65",71,"WHITE","M","Low Dose","102","ADAMDEMO01-102-015","ADAMDEMO01"
"","Y",2023-04-28,2023-03-18,24.9,178.7,79.4,">=65",71,"WHITE","M","Placebo","104","ADAMDEMO01-104-044","ADAMDEMO01"
"","Y",2023-07-09,2023-04-17,24.8,175.7,76.7,">=65",71,"WHITE","M","High Dose","105","ADAMDEMO01-105-056","ADAMDEMO01"
"","Y",2023-04-16,2023-01-23,32,159.8,81.6,">=65",76,"WHITE","F","Low Dose","105","ADAMDEMO01-105-060","ADAMDEMO01"
"","Y",,2023-02-05,25.2,171.8,74.5,">=65",82,"WHITE","M","High Dose","102","ADAMDEMO01-102-011","ADAMDEMO01"
"","Y",2023-04-15,2023-03-07,19.6,183.3,65.8,">=65",82,"ASIAN","M","Low Dose","102","ADAMDEMO01-102-018","ADAMDEMO01"
