"STUDYID","USUBJID","SITEID","ARM","SEX","RACE","AGE","AGEGR1","WEIGHTBL","BMIBL","TRTSDT","TRTEDT","SAFFL","DTHFL","RANDFL"
"ADAMDEMO01","ADAMDEMO01-101-001","101","Low Dose","F","ASIAN",53,"45-64","63.3",22,2023-01-11,2023-04-04,"N","","Y"
"ADAMDEMO01","ADAMDEMO01-101-002","101","High Dose","M","WHITE",63,"45-64","69.2",24.9,2023-01-14,2023-04-07,"Y","","Y"
"ADAMDEMO01","ADAMDEMO01-101-003","101","Placebo","F","ASIAN",61,"45-64","77.8",28.9,2023-03-10,2023-06-01,"Y","","Y"
"ADAMDEMO01","ADAMDEMO01-101-004","101","Placebo","F","WHITE",67,">=65","81.8",29.6,2023-03-20,2023-06-11,"Y","","Y"
"ADAMDEMO01","ADAMDEMO01-101-005","101","Low Dose","M","BLACK OR AFRICAN AMERICAN",57,"45-64","69.4",20.1,2023-04-05,2023-06-27,"Y","","Y"
"ADAMDEMO01","ADAMDEMO01-101-006","101","High Dose","F","WHITE",54,"45-64","61.6",23.2,2023-02-25,2023-05-19,"Y","","Y"
"ADAMDEMO01","ADAMDEMO01-101-007","101","High Dose","F","ASIAN",35,"<45","75.1",34.6,2023-04-17,2023-07-09,"Y","","Y"
"ADAMDEMO01","ADAMDEMO01-101-008","101","High Dose","M","ASIAN",47,"45-64","82",25,2023-04-13,2023-07-05,"Y","","Y"
"ADAMDEMO01","ADAMDEMO01-101-009","101","High Dose","F","WHITE",71,">=65","92.2",42.4,2023-05-08,2023-07-30,"Y","","Y"
"ADAMDEMO01","ADAMDEMO01-102-010","102","Placebo","M","ASIAN",52,"45-64","98.6",29.6,2023-02-19,2023-05-13,"Y","","Y"
"ADAMDEMO01","ADAMDEMO01-102-011","102","High Dose","M","WHITE",82,">=65","74.5",25.2,2023-02-05,,"Y","","Y"
"ADAMDEMO01","ADAMDEMO01-102-012","102","Placebo","F","BLACK OR AFRICAN AMERICAN",54,"45-64","71",30.1,2023-04-15,2023-07-07,"Y","","Y"
"ADAMDEMO01","ADAMDEMO01-102-013","102","Low Dose","M","OTHER",62,"45-64","69.6",23.2,2023-02-22,2023-05-16,"Y","","Y"
"ADAMDEMO01","ADAMDEMO01-102-014","102","Placebo","M","WHITE",42,"<45","89.6",27.7,2023-01-18,2023-04-11,"Y","","Y"
"ADAMDEMO01","ADAMDEMO01-102-015","102","Low Dose","M","WHITE",71,">=65","70.6",20.8,2023-01-12,2023-04-05,"Y","","Y"
"ADAMDEMO01","ADAMDEMO01-102-016","102","Placebo","M","WHITE",61,"45-64","78.4",24.1,2023-01-20,2023-04-13,"Y","","Y"
"ADAMDEMO01","ADAMDEMO01-102-017","102","Placebo","M","BLACK OR AFRICAN AMERICAN",63,"45-64","81.2",26.3,2023-02-15,2023-05-09,"Y","","Y"
"ADAMDEMO01","ADAMDEMO01-102-018","102","Low Dose","M","ASIAN",82,">=65","65.8",19.6,2023-03-07,2023-04-15,"Y","","Y"
"ADAMDEMO01","ADAMDEMO01-102-019","102","Low Dose","M","BLACK OR AFRICAN AMERICAN",52,"45-64","93.8",29.8,2023-05-05,2023-07-27,"Y","","Y"
"ADAMDEMO01","ADAMDEMO01-102-020","102","Low Dose","F","WHITE",68,">=65","77.6",31.6,2023-05-04,2023-07-26,"Y","","Y"
"ADAMDEMO01","ADAMDEMO01-102-021","102","High Dose","F","WHITE",70,">=65","UNK",,2023-02-11,2023-05-05,"Y","","Y"
"ADAMDEMO01","ADAMDEMO01-103-022","103","Placebo","F","OTHER",35,"<45","59.7",20.9,2023-04-27,2023-07-19,"Y","","Y"
"ADAMDEMO01","ADAMDEMO01-103-023","103","High Dose","F","WHITE",45,"45-64","71.2",28.8,2023-05-09,2023-07-31,"Y","","Y"
"ADAMDEMO01","ADAMDEMO01-103-024","103","Placebo","M","WHITE",41,"<45","86.6",24.9,2023-04-21,2023-07-13,"Y","","Y"
"ADAMDEMO01","ADAMDEMO01-103-025","103","Low Dose","M","ASIAN",45,"45-64","UNK",,2023-05-09,2023-07-31,"Y","","Y"
"ADAMDEMO01","ADAMDEMO01-103-026","103","Low Dose","F","WHITE",70,">=65","58.4",23.7,2023-04-06,2023-06-28,"Y","","Y"
"ADAMDEMO01","ADAMDEMO01-103-027","103","Low Dose","M","WHITE",44,"<45","75",21.2,2023-03-27,2023-04-11,"Y","","Y"
"ADAMDEMO01","ADAMDEMO01-103-028","103","High Dose","M","WHITE",65,">=65","78.5",29.3,2023-01-29,2023-04-22,"Y","","Y"
"ADAMDEMO01","ADAMDEMO01-103-029","103","High Dose","M","WHITE",45,"45-64","110.3",29.9,2023-01-09,2023-04-02,"N","","Y"
"ADAMDEMO01","ADAMDEMO01-103-030","103","High Dose","F","OTHER",39,"<45","57.1",22.9,2023-02-14,,"Y","Y","Y"
"ADAMDEMO01","ADAMDEMO01-103-031","103","Low Dose","F","WHITE",47,"45-64","63.6",25.6,2023-01-13,2023-04-06,"Y","Y","Y"
"ADAMDEMO01","ADAMDEMO01-103-032","103","Placebo","M","OTHER",43,"<45","75.1",28.3,2023-01-31,2023-04-24,"Y","","Y"
"ADAMDEMO01","ADAMDEMO01-103-033","103","High Dose","M","WHITE",61,"45-64","86.1",28.1,2023-03-08,2023-04-17,"Y","","Y"
"ADAMDEMO01","ADAMDEMO01-103-034","103","Placebo","F","BLACK OR AFRICAN AMERICAN",52,"45-64","62.7",24,2023-04-05,2023-06-27,"Y","","Y"
"ADAMDEMO01","ADAMDEMO01-103-035","103","Low Dose","F","WHITE",68,">=65","89.7",36.8,2023-02-01,,"Y","","Y"
"ADAMDEMO01","ADAMDEMO01-103-036","103","High Dose","M","BLACK OR AFRICAN AMERICAN",50,"45-64","65",19.8,2023-01-18,2023-04-11,"Y","","Y"
"ADAMDEMO01","ADAMDEMO01-103-037","103","High Dose","F","ASIAN",61,"45-64","68.4",26.8,2023-02-22,2023-05-16,"Y","","Y"
"ADAMDEMO01","ADAMDEMO01-103-038","103","Low Dose","F","WHITE",40,"<45","60.2",20.1,2023-02-01,2023-04-25,"Y","","Y"
"ADAMDEMO01","ADAMDEMO01-104-039","104","Low Dose","M","WHITE",58,"45-64","77.6",20.5,2023-01-26,2023-04-19,"Y","","Y"
"ADAMDEMO01","ADAMDEMO01-104-040","104","Low Dose","M","BLACK OR AFRICAN AMERICAN",57,"45-64","82.9",25.2,2023-03-05,2023-05-27,"Y","","Y"
"ADAMDEMO01","ADAMDEMO01-104-041","104","Placebo","F","WHITE",36,"<45","64.7",26.5,2023-04-19,2023-07-11,"Y","","Y"
"ADAMDEMO01","ADAMDEMO01-104-042","104","Placebo","M","WHITE",50,"45-64","64.7",19.5,2023-04-03,2023-06-25,"Y","","Y"
"ADAMDEMO01","ADAMDEMO01-104-043","104","High Dose","F","WHITE",65,">=65","58.5",22.3,2023-03-29,,"Y","Y","Y"
"ADAMDEMO01","ADAMDEMO01-104-044","104","Placebo","M","WHITE",72,">=65","79.4",24.9,2023-03-18,2023-04-28,"Y","","Y"
"ADAMDEMO01","ADAMDEMO01-104-045","104","Low Dose","F","WHITE",56,"45-64","55.8",19.9,2023-03-03,2023-05-25,"Y","","Y"
"ADAMDEMO01","ADAMDEMO01-104-046","104","High Dose","F","WHITE",68,">=65","70.9",29.8,2023-01-12,2023-04-05,"Y","","Y"
"ADAMDEMO01","ADAMDEMO01-104-047","104","Low Dose","F","WHITE",66,">=65","78.2",26.3,2023-01-14,2023-04-07,"Y","","Y"
"ADAMDEMO01","ADAMDEMO01-104-048","104","Placebo","M","WHITE",68,">=65","UNK",,2023-02-15,2023-03-08,"Y","","Y"
"ADAMDEMO01","ADAMDEMO01-104-049","104","Placebo","F","WHITE",67,">=65","71.9",24.2,2023-03-18,2023-06-09,"Y","","Y"
"ADAMDEMO01","ADAMDEMO01-105-050","105","High Dose","F","BLACK OR AFRICAN AMERICAN",37,"<45","69",26.4,2023-04-21,2023-07-13,"Y","","Y"
"ADAMDEMO01","ADAMDEMO01-105-051","105","Low Dose","M","WHITE",56,"45-64","74.7",25.1,2023-04-18,2023-06-16,"Y","","Y"
"ADAMDEMO01","ADAMDEMO01-105-052","105","Placebo","F","WHITE",54,"45-64","78.6",30.2,2023-01-10,2023-03-19,"Y","","Y"
"ADAMDEMO01","ADAMDEMO01-105-053","105","Low Dose","M","WHITE",52,"45-64","85.7",31.1,2023-03-18,2023-04-17,"Y","","Y"
"ADAMDEMO01","ADAMDEMO01-105-054","105","Low Dose","M","WHITE",49,"45-64","90.5",26.5,2023-01-27,2023-04-20,"Y","","Y"
"ADAMDEMO01","ADAMDEMO01-105-055","105","High Dose","F","WHITE",70,">=65","80.7",32.6,2023-02-24,2023-05-18,"Y","","Y"
"ADAMDEMO01","ADAMDEMO01-105-056","105","High Dose","M","WHITE",71,">=65","76.7",24.8,2023-04-17,2023-07-09,"Y","","Y"
"ADAMDEMO01","ADAMDEMO01-105-057","105","Placebo","F","OTHER",52,"45-64","75.5",30.1,2023-02-02,2023-04-26,"Y","","Y"
