"STUDYID","USUBJID","SITEID","ARM","SEX","RACE","AGE","AGEGR1","WEIGHTBL","HEIGHTBL","BMIBL","TRTSDT","TRTEDT","SAFFL","DTHFL"
"ADAMDEMO01","ADAMDEMO01-101-001","101","Low Dose","F","ASIAN",53,"45-64",63.3,169.7,22,2023-01-11,2023-04-04,"N",""
"ADAMDEMO01","ADAMDEMO01-101-002","101","High Dose","M","WHITE",63,"45-64",69.2,166.6,24.9,2023-01-14,2023-04-07,"Y",""
"ADAMDEMO01","ADAMDEMO01-101-003","101","Placebo","F","ASIAN",61,"45-64",77.8,164.2,28.9,2023-03-10,2023-06-01,"Y",""
"ADAMDEMO01","ADAMDEMO01-101-004","101","Placebo","F","WHITE",66,">=65",81.8,166.1,29.6,2023-03-20,2023-06-11,"Y",""
"ADAMDEMO01","ADAMDEMO01-101-005","101","Low Dose","M","BLACK OR AFRICAN AMERICAN",57,"45-64",69.4,185.7,20.1,2023-04-05,2023-06-27,"Y",""
"ADAMDEMO01","ADAMDEMO01-101-006","101","High Dose","F","WHITE",54,"45-64",61.1,162.4,23.2,2023-02-25,2023-05-19,"Y",""
"ADAMDEMO01","ADAMDEMO01-101-007","101","High Dose","F","ASIAN",35,"<45",75.1,147.3,34.6,2023-04-17,2023-07-09,"Y",""
"ADAMDEMO01","ADAMDEMO01-101-008","101","High Dose","M","ASIAN",47,"45-64",82,181,25,2023-04-13,2023-07-05,"Y",""
"ADAMDEMO01","ADAMDEMO01-101-009","101","Placebo","F","WHITE",71,">=65",92.2,147.4,42.4,2023-05-08,2023-07-30,"Y",""
"ADAMDEMO01","ADAMDEMO01-102-010","102","Placebo","M","ASIAN",52,"45-64",98.6,182.6,29.6,2023-02-19,2023-05-13,"Y",""
"ADAMDEMO01","ADAMDEMO01-102-011","102","High Dose","M","WHITE",82,">=65",74.5,171.8,25.2,2023-02-05,,"Y",""
"ADAMDEMO01","ADAMDEMO01-102-012","102","Placebo","F","BLACK OR AFRICAN AMERICAN",54,"45-64",71,153.6,30.1,2023-04-15,2023-07-07,"Y",""
"ADAMDEMO01","ADAMDEMO01-102-013","102","Low Dose","M","WHITE",62,"45-64",69.6,173.3,23.2,2023-02-22,2023-05-16,"Y",""
"ADAMDEMO01","ADAMDEMO01-102-014","102","Placebo","M","WHITE",42,"<45",89.6,180,27.7,2023-01-18,2023-04-11,"Y",""
"ADAMDEMO01","ADAMDEMO01-102-015","102","Low Dose","M","WHITE",71,">=65",70.6,184.3,20.8,2023-01-12,2023-04-05,"Y",""
"ADAMDEMO01","ADAMDEMO01-102-016","102","Placebo","M","WHITE",61,"45-64",78.4,180.4,24.1,2023-01-20,2023-04-13,"Y",""
"ADAMDEMO01","ADAMDEMO01-102-017","102","Placebo","M","BLACK OR AFRICAN AMERICAN",62,"45-64",81.2,175.8,26.3,2023-02-15,2023-05-09,"Y",""
"ADAMDEMO01","ADAMDEMO01-102-018","102","Low Dose","M","ASIAN",82,">=65",65.8,183.3,19.6,2023-03-07,2023-04-15,"Y",""
"ADAMDEMO01","ADAMDEMO01-102-019","102","Low Dose","M","BLACK OR AFRICAN AMERICAN",52,"45-64",93.8,177.3,29.8,2023-05-05,2023-07-27,"Y",""
"ADAMDEMO01","ADAMDEMO01-102-020","102","Low Dose","F","WHITE",68,">=65",77.6,156.7,31.6,2023-05-04,2023-07-26,"Y",""
"ADAMDEMO01","ADAMDEMO01-102-021","102","High Dose","F","WHITE",70,">=65",,159.7,,2023-02-11,2023-05-05,"Y",""
"ADAMDEMO01","ADAMDEMO01-103-022","103","Placebo","F","OTHER",35,"<45",59.2,168.3,20.9,2023-04-27,2023-07-19,"Y",""
"ADAMDEMO01","ADAMDEMO01-103-023","103","High Dose","F","WHITE",45,"45-64",71.2,157.1,28.8,2023-05-09,2023-07-31,"Y",""
"ADAMDEMO01","ADAMDEMO01-103-024","103","Placebo","M","WHITE",41,"<45",86.6,186.4,24.9,2023-04-21,2023-07-13,"Y",""
"ADAMDEMO01","ADAMDEMO01-103-025","103","Low Dose","M","ASIAN",45,"45-64",,172.9,,2023-05-09,2023-07-31,"Y",""
"ADAMDEMO01","ADAMDEMO01-103-026","103","High Dose","F","WHITE",70,">=65",58.4,157.1,23.7,2023-04-06,2023-06-28,"Y",""
"ADAMDEMO01","ADAMDEMO01-103-027","103","Low Dose","M","WHITE",44,"<45",75,187.9,21.2,2023-03-27,2023-04-11,"Y",""
"ADAMDEMO01","ADAMDEMO01-103-028","103","High Dose","M","WHITE",65,">=65",78.5,163.8,29.3,2023-01-29,2023-04-22,"Y",""
"ADAMDEMO01","ADAMDEMO01-103-029","103","High Dose","M","WHITE",45,"45-64",110.3,192,29.9,2023-01-09,2023-04-02,"N",""
"ADAMDEMO01","ADAMDEMO01-103-030","103","High Dose","F","OTHER",39,"<45",57.1,158,22.9,2023-02-14,,"Y","Y"
"ADAMDEMO01","ADAMDEMO01-103-031","103","Low Dose","F","WHITE",46,"45-64",63.6,157.7,25.6,2023-01-13,2023-04-06,"Y","Y"
"ADAMDEMO01","ADAMDEMO01-103-032","103","Placebo","M","OTHER",43,"<45",75.1,162.8,28.3,2023-01-31,2023-04-24,"Y",""
"ADAMDEMO01","ADAMDEMO01-103-033","103","High Dose","M","WHITE",61,"45-64",86.1,175.1,28.1,2023-03-08,2023-04-17,"Y",""
"ADAMDEMO01","ADAMDEMO01-103-034","103","Placebo","F","BLACK OR AFRICAN AMERICAN",52,"45-64",62.7,161.7,24,2023-04-05,2023-06-27,"Y",""
"ADAMDEMO01","ADAMDEMO01-103-035","103","Low Dose","F","WHITE",68,">=65",89.7,156.2,36.8,2023-02-01,,"Y",""
"ADAMDEMO01","ADAMDEMO01-103-036","103","High Dose","M","BLACK OR AFRICAN AMERICAN",50,"45-64",65,181.2,19.8,2023-01-18,2023-04-11,"Y",""
"ADAMDEMO01","ADAMDEMO01-103-037","103","High Dose","F","ASIAN",61,"45-64",68.4,159.8,26.8,2023-02-22,2023-05-16,"Y",""
"ADAMDEMO01","ADAMDEMO01-103-038","103","Low Dose","F","WHITE",40,"<45",59.7,172.5,20.1,2023-02-01,2023-04-25,"Y",""
"ADAMDEMO01","ADAMDEMO01-104-039","104","Low Dose","M","WHITE",58,"45-64",77.6,194.5,20.5,2023-01-26,2023-04-19,"Y",""
"ADAMDEMO01","ADAMDEMO01-104-040","104","Low Dose","M","BLACK OR AFRICAN AMERICAN",57,"45-64",82.9,181.2,25.2,2023-03-05,2023-05-27,"Y",""
"ADAMDEMO01","ADAMDEMO01-104-041","104","Placebo","F","WHITE",36,"<45",64.7,156.4,26.5,2023-04-19,2023-07-11,"Y",""
"ADAMDEMO01","ADAMDEMO01-104-042","104","Placebo","M","WHITE",50,"45-64",64.7,182.2,19.5,2023-04-03,2023-06-25,"Y",""
"ADAMDEMO01","ADAMDEMO01-104-043","104","High Dose","F","WHITE",65,">=65",58.5,161.8,22.3,2023-03-29,,"Y","Y"
"ADAMDEMO01","ADAMDEMO01-104-044","104","Placebo","M","WHITE",71,">=65",79.4,178.7,24.9,2023-03-18,2023-04-28,"Y",""
"ADAMDEMO01","ADAMDEMO01-104-045","104","Low Dose","F","WHITE",56,"45-64",55.8,167.3,19.9,2023-03-03,2023-05-25,"Y",""
"ADAMDEMO01","ADAMDEMO01-104-046","104","High Dose","F","WHITE",68,">=65",70.9,154.3,29.8,2023-01-12,2023-04-05,"Y",""
"ADAMDEMO01","ADAMDEMO01-104-047","104","Low Dose","F","WHITE",66,">=65",78.2,172.3,26.3,2023-01-14,2023-04-07,"Y",""
"ADAMDEMO01","ADAMDEMO01-104-048","104","Placebo","M","WHITE",68,">=65",,177.6,,2023-02-15,2023-03-08,"Y",""
"ADAMDEMO01","ADAMDEMO01-104-049","104","Placebo","F","WHITE",67,">=65",71.9,172.5,24.2,2023-03-18,2023-06-09,"Y",""
"ADAMDEMO01","ADAMDEMO01-105-050","105","High Dose","F","BLACK OR AFRICAN AMERICAN",37,"<45",69,161.6,26.4,2023-04-21,2023-07-13,"Y",""
"ADAMDEMO01","ADAMDEMO01-105-051","105","Low Dose","M","WHITE",56,"45-64",74.7,172.6,25.1,2023-04-18,2023-06-16,"Y",""
"ADAMDEMO01","ADAMDEMO01-105-052","105","Placebo","F","WHITE",53,"45-64",78.6,161.3,30.2,2023-01-10,2023-03-19,"Y",""
"ADAMDEMO01","ADAMDEMO01-105-053","105","Low Dose","M","WHITE",52,"45-64",85.7,166.1,31.1,2023-03-18,2023-04-17,"Y",""
"ADAMDEMO01","ADAMDEMO01-105-054","105","Low Dose","M","WHITE",49,"45-64",90.5,184.8,26.5,2023-01-27,2023-04-20,"Y",""
"ADAMDEMO01","ADAMDEMO01-105-055","105","High Dose","F","WHITE",70,">=65",80.7,157.3,32.6,2023-02-24,2023-05-18,"Y",""
"ADAMDEMO01","ADAMDEMO01-105-056","105","High Dose","M","WHITE",71,">=65",76.7,175.7,24.8,2023-04-17,2023-07-09,"Y",""
"ADAMDEMO01","ADAMDEMO01-105-057","105","Placebo","F","OTHER",52,"45-64",75.5,158.4,30.1,2023-02-02,2023-04-26,"Y",""
"ADAMDEMO01","ADAMDEMO01-105-058","105","Placebo","F","WHITE",67,">=65",78.1,164.7,28.8,2023-02-17,2023-05-11,"Y",""
"ADAMDEMO01","ADAMDEMO01-105-059","105","High Dose","M","BLACK OR AFRICAN AMERICAN",56,"45-64",96.9,178.1,30.5,2023-01-12,2023-04-05,"Y",""
"ADAMDEMO01","ADAMDEMO01-105-060","105","Low Dose","F","WHITE",76,">=65",81.6,159.8,32,2023-01-23,2023-04-16,"Y",""
